{
  "resourceType": "ServiceRequest",
  "id": "AURF-265",
  "contained": [
    {
      "resourceType": "PractitionerRole",
      "id": 628519,
      "identifier": [
        {
          "type": {
            "coding": [
              {
                "system": "http://terminology.hl7.org.au/CodeSystem/v2-0203",
                "code": "UPIN"
              }
            ],
            "text": "Medicare Provider Number"
          },
          "system": "http://ns.electronichealth.net.au/id/medicare-provider-number",
          "value": 219612
        }
      ],
      "practitioner": {
        "reference": "#7f92cfac-fd35-4132-a0a5-9d6bd6a7a40e",
        "type": "Practitioner"
      },
      "organization": {
        "reference": "#204c2f1f-de64-41a2-83ea-70f39b098b6f",
        "type": "Organization"
      }
    },
    {
      "resourceType": "Practitioner",
      "id": "7f92cfac-fd35-4132-a0a5-9d6bd6a7a40e",
      "identifier": [
        {
          "type": {
            "coding": [
              {
                "system": "http://hl7.org.au/fhir/v2/0203",
                "code": "NPI",
                "display": "National provider identifier"
              }
            ],
            "text": "HPI-I"
          },
          "system": "http://ns.electronichealth.net.au/id/hi/hpii/1.0",
          "value": 4965243221728980
        }
      ],
      "name": [
        {
          "use": "official",
          "family": "Fuller",
          "given": ["Evelyn"]
        }
      ]
    },
    {
      "resourceType": "Organization",
      "id": "204c2f1f-de64-41a2-83ea-70f39b098b6f",
      "meta": {
        "profile": [
          "http://hl7.org.au/fhir/StructureDefinition/au-organization"
        ]
      },
      "identifier": [
        {
          "type": {
            "coding": [
              {
                "system": "http://terminology.hl7.org.au/CodeSystem/v2-0203",
                "code": "NOI",
                "display": "National Organisation Identifier"
              }
            ],
            "text": "HPI-O"
          },
          "system": "http://ns.electronichealth.net.au/id/hi/hpio/1.0",
          "value": 402825
        },
        {
          "type": {
            "coding": [
              {
                "system": "http://hl7.org.au/fhir/v2/0203",
                "code": "RI",
                "display": "Resource identifier"
              }
            ],
            "text": "EDI"
          },
          "system": "https://www.healthlink.net/edi-address",
          "value": "YR18286"
        }
      ],
      "active": true,
      "name": "Surfside Community Health",
      "telecom": [
        {
          "system": "phone",
          "value": "8027.9965",
          "use": "work"
        },
        {
          "system": "email",
          "value": "griffinallison@example.org",
          "use": "work"
        }
      ],
      "address": [
        {
          "use": "work",
          "type": "physical",
          "line": ["205 Allison Brow"],
          "city": "Vanessachester",
          "state": "TAS",
          "postalCode": "2636",
          "country": "AUS"
        }
      ]
    },
    {
      "resourceType": "Patient",
      "id": "c3a78aaa-b203-4712-9ae1-1dd79f6fc0e5",
      "meta": {
        "profile": ["http://hl7.org.au/fhir/StructureDefinition/au-patient"]
      },
      "extension": [
        {
          "url": "http://hl7.org.au/fhir/StructureDefinition/indigenous-status",
          "valueCoding": {
            "system": "https://healthterminologies.gov.au/fhir/CodeSystem/australian-indigenous-status-1",
            "code": "3",
            "display": "Both Aboriginal and Torres Strait Islander origin"
          }
        }
      ],
      "identifier": [
        {
          "type": {
            "coding": [
              {
                "system": "http://terminology.hl7.org/CodeSystem/v2-0203",
                "code": "NI",
                "display": "National unique individual identifier"
              }
            ],
            "text": "IHI"
          },
          "system": "http://ns.electronichealth.net.au/id/hi/ihi/1.0",
          "value": 5249917909167330
        },
        {
          "type": {
            "coding": [
              {
                "system": "http://terminology.hl7.org/CodeSystem/v2-0203",
                "code": "MC",
                "display": "Patient's Medicare Number"
              }
            ],
            "text": "Medicare Number"
          },
          "system": "http://ns.electronichealth.net.au/id/medicare-number",
          "value": 4837280552
        },
        {
          "type": {
            "coding": [
              {
                "system": "http://terminology.hl7.org.au/CodeSystem/v2-0203",
                "code": "DVAU",
                "display": "DVA Number"
              }
            ],
            "text": "DVA Number"
          },
          "system": "http://ns.electronichealth.net.au/id/dva",
          "value": "yMsRrRat"
        }
      ],
      "name": [
        {
          "use": "official",
          "family": "Davis",
          "given": ["Amanda", "Robert"]
        }
      ],
      "telecom": [
        {
          "system": "phone",
          "value": "4771-4611",
          "use": "work",
          "rank": 2
        },
        {
          "system": "phone",
          "value": "0436.016.406",
          "use": "home",
          "rank": 2
        },
        {
          "system": "phone",
          "value": "1120.6122",
          "use": "mobile",
          "rank": 1
        },
        {
          "system": "email",
          "value": "michael18@example.net",
          "use": "home",
          "rank": 2
        }
      ],
      "gender": "other",
      "birthDate": "1973-07-05",
      "address": [
        {
          "use": "home",
          "type": "postal",
          "line": ["565/178 Martin Nook"],
          "city": "Stevenville",
          "state": "NSW",
          "postalCode": "4627",
          "country": "AUS"
        },
        {
          "use": "home",
          "type": "physical",
          "line": ["Flat 62 1 Brown Firetrail"],
          "city": "Pachecoborough",
          "postalCode": "2614",
          "country": "AUS"
        }
      ],
      "contact": [
        {
          "relationship": [
            {
              "coding": [
                {
                  "system": "http://internal4.health.nsw.gov.au/hird/view_domain_values_list.cfm?ItemID=10813",
                  "code": "27",
                  "display": "Carer"
                }
              ]
            }
          ],
          "name": {
            "use": "official",
            "family": "Meza",
            "given": ["Heather"]
          },
          "telecom": [
            {
              "system": "phone",
              "value": "0479-383-436",
              "use": "home"
            }
          ]
        }
      ],
      "generalPractitioner": [
        {
          "reference": "#628519",
          "type": "PractitionerRole"
        }
      ],
      "managingOrganization": {
        "reference": "#204c2f1f-de64-41a2-83ea-70f39b098b6f",
        "type": "Organization"
      }
    }
  ],
  "identifier": [
    {
      "use": "official",
      "type": {
        "coding": [
          {
            "system": "http://terminology.hl7.org/CodeSystem/v2-0203",
            "code": "PLAC",
            "display": "Placer Identifier"
          }
        ],
        "text": "Placer Identifier"
      },
      "system": "http://rhapsody.healthlink.net/form-au-sp-route/soapListener/messageIds",
      "value": "AURF-345"
    }
  ],
  "basedOn": [
    {
      "display": "ServiceRequest"
    }
  ],
  "status": "active",
  "intent": "order",
  "priority": "routine",
  "code": {
    "coding": [
      {
        "system": "http://snomed.info/sct",
        "code": "dummy",
        "display": "Referral to service"
      }
    ],
    "text": "Bootcamp - Mental Health e-Referral"
  },
  "subject": {
    "reference": "#c3a78aaa-b203-4712-9ae1-1dd79f6fc0e5",
    "type": "Patient"
  },
  "occurrenceTiming": {
    "repeat": {
      "duration": 12,
      "durationUnit": "mo"
    }
  },
  "authoredOn": "2023-04-23T16:50:04+00:00",
  "requester": {
    "reference": "#628519",
    "type": "PractitionerRole"
  },
  "performer": [
    {
      "type": "HealthcareService",
      "identifier": {
        "value": "dummy"
      },
      "display": "Australian Bootcamp of Clinical Health Clinic Referral Service"
    },
    {
      "type": "Organization",
      "identifier": {
        "value": "aubootcampref"
      },
      "display": "Australian Bootcamp of Mental Health Clinic"
    }
  ]
}
